Folder: Pyrolysis_BESKID/Experiments/FZJ/MCC/raw (part 2)

File: 20240905_PMMA_DE_6mm_60Kmin_4mg_R3.txt
File Name:	PMMA_DE_6mm_60Kmin_4mg_R3.txt
Version: 8.3.7.3
Date:	05 Sep 2024
Operator:	KH
Test ID:	PMMA_DE_6mm_4mg_60K_R3
Sample ID:	PMMA_DE_6mm_4mg
Sample Mass (mg):	4.0900
Sample Cup Mass (mg):	186.2800
End Total Mass (mg):	0.0000
Heating Rate (C/s):	1.0000
Combuster Temperature (C):	900.0
N2 Flow Rate (cc/min):	80.0
O2 Flow Rate (cc/min):	20.0
Calibration File:	Coeff.txt
T Correction Coefficients:	0.308739	0.0136155	0.000000000
Time Shift (s):	10.0
Pre-Test Comments:
Post-Test Comments:
Baseline Flow:	100.240
Baseline O2:	20.196
Instrument ID:
@
Time (s)	Temperature (C)	N2 Flow (cc/min)	O2 Flow (cc/min)	Total Flow (cc/min)	Oxygen (%)	HRR (W/g)	Heating Rate (C/s)	Combustor Temp (C)
0.000	74.967	80.017	19.978	100.240	20.184	-8.399	0.048	900.482
3.499	75.149	80.017	19.979	100.599	20.088	-0.668	0.104	900.437
7.000	75.718	80.018	19.979	100.905	20.076	-6.437	0.191	900.393
10.499	76.681	80.017	19.978	100.880	20.056	-9.820	0.312	900.399
13.999	78.011	80.018	19.977	101.269	19.919	4.849	0.472	900.381
17.499	80.194	80.016	19.976	101.716	19.953	5.714	0.677	900.368
21.000	82.968	80.016	19.978	101.417	19.998	4.206	0.812	900.356
24.500	86.087	80.014	19.977	101.158	20.028	3.215	0.955	900.310
27.999	89.434	80.013	19.977	101.027	20.053	2.161	0.978	900.287
31.500	92.938	80.013	19.975	100.925	20.067	1.745	0.986	900.281
34.999	96.596	80.017	19.975	100.864	20.082	0.979	1.080	900.259
38.500	100.215	80.014	19.976	100.816	20.089	0.678	1.038	900.253
42.000	103.873	80.014	19.977	100.794	20.095	0.428	1.067	900.207
45.500	107.611	80.013	19.975	100.776	20.098	0.624	1.077	900.207
49.000	111.313	80.015	19.976	100.763	20.113	-0.498	1.057	900.183
52.500	115.054	80.014	19.976	100.731	20.112	-0.296	1.043	900.140
56.001	118.786	80.019	19.976	100.735	20.112	-0.057	1.056	900.151
59.500	122.522	80.017	19.976	100.726	20.115	-0.301	1.034	900.127
63.000	126.200	80.014	19.976	100.698	20.110	0.372	1.057	900.113
66.500	129.903	80.018	19.976	100.704	20.104	1.023	1.085	900.086
70.000	133.599	80.014	19.977	100.683	20.103	1.165	1.047	900.054
73.500	137.293	80.017	19.977	100.670	20.098	1.357	1.095	900.056
77.000	140.914	80.016	19.978	100.664	20.090	2.274	1.041	900.000
80.500	144.562	80.018	19.976	100.680	20.088	2.409	1.036	900.006
84.000	148.223	80.016	19.976	100.661	20.083	2.797	1.059	899.977
87.500	151.796	80.017	19.976	100.657	20.074	3.647	1.032	899.967
91.000	155.401	80.016	19.977	100.655	20.062	4.745	1.024	899.935
94.500	159.013	80.016	19.977	100.647	20.049	5.452	1.027	899.953
98.001	162.571	80.017	19.976	100.629	20.036	6.449	1.017	899.917
101.501	166.175	80.017	19.976	100.658	20.015	8.206	0.993	899.896
105.000	169.726	80.016	19.978	100.649	19.983	10.893	1.001	899.873
108.500	173.293	80.019	19.975	100.642	19.947	13.563	0.990	899.855
112.000	176.892	80.016	19.974	100.625	19.905	16.872	1.019	899.844
115.501	180.478	80.018	19.976	100.625	19.871	19.757	1.089	899.835
119.001	184.018	80.019	19.978	100.617	19.832	22.818	1.014	899.828
122.501	187.531	80.016	19.976	100.603	19.802	25.152	0.985	899.757
126.000	191.110	80.016	19.977	100.589	19.798	25.860	1.020	899.800
129.501	194.687	80.017	19.976	100.589	19.798	26.144	1.019	899.751
133.000	198.232	80.018	19.976	100.555	19.818	24.769	1.006	899.765
136.501	201.826	80.013	19.975	100.532	19.859	21.462	1.029	899.730
140.001	205.358	80.015	19.975	100.518	19.907	17.947	1.004	899.751
143.500	208.957	80.014	19.976	100.543	19.959	13.407	1.041	899.732
147.001	212.470	80.018	19.974	100.528	20.001	10.278	1.020	899.754
150.501	216.023	80.018	19.975	100.567	20.041	6.963	1.059	899.677
154.000	219.602	80.016	19.975	100.568	20.065	5.080	1.018	899.666
157.502	223.136	80.015	19.976	100.586	20.069	5.107	1.053	899.657
161.001	226.655	80.017	19.977	100.593	20.072	5.012	1.005	899.641
164.501	230.181	80.016	19.976	100.577	20.070	5.402	1.002	899.662
168.001	233.670	80.017	19.976	100.558	20.073	5.367	1.003	899.620
171.502	237.217	80.017	19.977	100.549	20.078	5.160	1.002	899.619
175.001	240.752	80.016	19.976	100.526	20.072	5.578	1.023	899.597
178.501	244.248	80.015	19.977	100.515	20.083	4.682	0.983	899.571
182.001	247.783	80.020	19.977	100.517	20.083	4.852	1.029	899.543
185.501	251.278	80.013	19.976	100.524	20.091	4.193	0.967	899.545
189.001	254.824	80.016	19.977	100.518	20.091	4.268	1.002	899.569
192.502	258.352	80.019	19.977	100.517	20.094	4.015	0.981	899.537
196.001	261.850	80.017	19.976	100.506	20.098	3.831	1.001	899.534
199.501	265.357	80.020	19.978	100.510	20.091	4.092	0.997	899.546
203.002	268.875	80.021	19.976	100.500	20.081	4.875	0.992	899.532
206.502	272.371	80.020	19.977	100.520	20.070	5.853	1.003	899.517
210.002	275.873	80.022	19.977	100.523	20.054	7.307	1.026	899.507
213.502	279.412	80.021	19.976	100.507	20.028	8.767	1.025	899.505
217.001	282.875	80.019	19.977	100.496	20.000	11.180	1.000	899.516
220.502	286.381	80.023	19.979	100.530	19.963	14.069	0.998	899.470
224.002	289.895	80.021	19.978	100.505	19.920	17.358	0.996	899.454
227.502	293.413	80.020	19.978	100.504	19.872	21.237	1.005	899.430
231.001	296.924	80.023	19.976	100.503	19.825	24.978	1.018	899.439
234.502	300.415	80.018	19.975	100.481	19.783	27.987	1.016	899.393
238.002	303.927	80.018	19.977	100.475	19.740	31.397	1.018	899.390
241.501	307.412	80.019	19.976	100.489	19.709	33.900	0.987	899.368
245.002	310.878	80.018	19.977	100.473	19.680	35.966	0.940	899.368
248.501	314.426	80.018	19.975	100.460	19.653	37.997	1.003	899.360
252.002	317.896	80.018	19.976	100.469	19.622	39.842	0.992	899.330
255.502	321.418	80.018	19.977	100.476	19.578	42.629	0.990	899.337
259.001	324.923	80.017	19.977	100.512	19.504	47.861	1.011	899.324
262.502	328.423	80.020	19.976	100.542	19.390	56.015	0.973	899.339
266.002	331.915	80.019	19.979	100.572	19.240	67.308	0.996	899.349
269.503	335.408	80.020	19.977	100.601	19.045	82.143	1.006	899.320
273.002	338.873	80.018	19.977	100.612	18.815	99.249	0.971	899.324
276.502	342.395	80.018	19.976	100.598	18.550	119.286	0.999	899.329
280.003	345.885	80.021	19.976	100.626	18.254	141.764	0.963	899.344
283.503	349.335	80.020	19.977	100.614	17.948	164.647	0.981	899.323
287.003	352.864	80.018	19.977	100.596	17.624	188.799	1.018	899.336
290.502	356.336	80.022	19.976	100.600	17.304	213.148	0.995	899.354
294.003	359.823	80.019	19.978	100.610	16.988	236.769	1.037	899.314
297.503	363.265	80.017	19.977	100.580	16.710	257.486	1.005	899.311
301.003	366.771	80.019	19.977	100.570	16.468	275.034	1.014	899.365
304.503	370.237	80.017	19.976	100.564	16.255	290.021	1.009	899.344
308.002	373.745	80.017	19.976	100.592	15.991	309.773	1.016	899.351
311.502	377.198	80.016	19.977	100.669	15.758	327.974	1.015	899.337
315.002	380.674	80.015	19.976	100.669	15.721	330.130	1.008	899.326
318.503	384.157	80.015	19.976	100.577	15.635	336.205	1.015	899.351
322.002	387.640	80.013	19.977	100.628	15.543	343.203	1.036	899.363
325.503	391.144	80.018	19.978	100.663	15.678	332.602	0.994	899.359
329.003	394.650	80.019	19.976	100.639	15.713	330.022	1.008	899.370
332.502	398.150	80.017	19.977	100.677	15.805	322.131	1.014	899.361
336.003	401.655	80.017	19.976	100.691	15.685	333.445	1.002	899.384
339.503	405.167	80.015	19.976	100.793	16.031	309.921	1.002	899.364
343.003	408.699	80.015	19.977	100.616	16.583	268.670	1.017	899.383
346.503	412.221	80.013	19.978	100.379	17.048	233.588	1.004	899.372
350.003	415.817	80.019	19.978	100.409	17.644	187.466	1.062	899.388
353.503	419.371	80.016	19.978	100.458	18.290	137.264	1.024	899.397
357.002	422.944	80.016	19.977	100.588	18.812	96.673	1.021	899.406
360.504	426.451	80.018	19.977	100.729	19.208	66.319	0.990	899.416
364.003	429.971	80.018	19.976	100.827	19.510	43.894	1.007	899.410
367.503	433.451	80.019	19.975	100.860	19.726	28.479	1.007	899.421
371.003	436.964	80.015	19.975	100.830	19.875	18.176	1.010	899.447
374.504	440.498	80.019	19.976	100.766	19.987	10.440	1.020	899.452
378.003	443.984	80.019	19.976	100.691	20.062	5.861	1.011	899.443
381.503	447.478	80.021	19.977	100.641	20.112	2.655	0.998	899.516
385.004	450.962	80.018	19.975	100.557	20.153	0.087	0.991	899.510
388.504	454.443	80.020	19.977	100.519	20.176	-1.065	0.983	899.495
392.005	457.928	80.019	19.976	100.479	20.185	-1.393	0.963	899.557
395.504	461.446	80.018	19.976	100.438	20.195	-1.782	0.982	899.549
399.003	464.947	80.022	19.975	100.406	20.195	-1.542	0.984	899.536
402.504	468.438	80.019	19.976	100.381	20.197	-1.422	1.019	899.574
406.003	471.928	80.020	19.977	100.366	20.196	-1.573	1.003	899.558
409.503	475.420	80.021	19.977	100.346	20.194	-1.184	1.015	899.580
413.004	478.927	80.020	19.976	100.359	20.200	-1.630	1.044	899.595
416.504	482.394	80.017	19.977	100.354	20.202	-1.696	1.022	899.629
420.004	485.876	80.022	19.975	100.341	20.200	-1.383	1.024	899.475
423.503	489.371	80.020	19.976	100.338	20.203	-1.742	0.991	899.672
427.003	492.879	80.021	19.976	100.332	20.198	-1.323	1.004	899.668
430.504	496.383	80.019	19.975	100.339	20.204	-1.746	1.041	899.665
434.004	499.849	80.017	19.976	100.332	20.205	-1.694	0.998	899.659
437.505	503.322	80.018	19.975	100.335	20.202	-1.480	1.010	899.678
441.004	506.799	80.018	19.977	100.326	20.205	-1.856	1.012	899.696
444.504	510.310	80.019	19.976	100.322	20.206	-1.837	1.014	899.716
448.004	513.804	80.023	19.976	100.336	20.204	-1.750	0.987	899.738
451.504	517.318	80.023	19.975	100.322	20.202	-1.600	0.999	899.760
455.005	520.791	80.021	19.976	100.337	20.208	-1.939	1.013	899.800
458.505	524.273	80.023	19.975	100.333	20.206	-1.777	0.987	899.771
462.005	527.787	80.022	19.975	100.322	20.207	-1.805	1.031	899.817
465.504	531.266	80.022	19.975	100.321	20.211	-2.117	0.973	899.839
469.004	534.777	80.019	19.976	100.319	20.208	-1.709	1.017	899.865
472.505	538.280	80.020	19.975	100.321	20.206	-1.867	1.026	899.882
476.005	541.745	80.022	19.975	100.307	20.206	-1.664	0.996	899.930
479.505	545.244	80.019	19.974	100.329	0.000	0.000	1.005	899.918
483.004	548.755	80.019	19.976	100.313	0.000	0.000	1.045	899.955
486.505	552.219	80.021	19.975	100.312	0.000	0.000	0.987	899.937
488.004	553.696	80.022	19.974	100.302	0.000	0.000	0.986	899.993